{
  "resourceType": "CarePlan",
  "id": "IMMZDTUmbrella",
  "contained": [
    {
      "resourceType": "RequestGroup",
      "id": "IMMZDTUmbrella",
      "instantiatesCanonical": [
        "http://smart.who.int/ig/smart-immunizations/PlanDefinition/IMMZDTUmbrella|0.1.0"
      ],
      "status": "draft",
      "intent": "proposal",
      "subject": {
        "reference": "IMMZ-Patient-enadult-m"
      },
      "action": [
        {
          "title": "Check Immunizations",
          "description": "Check immunization plan definitions to see what is required.",
          "code": [
            {
              "coding": [
                {
                  "system": "http://hl7.org/fhir/uv/cpg/CodeSystem/cpg-common-process-cs",
                  "code": "dispense-medications"
                }
              ]
            }
          ],
          "selectionBehavior": "all",
          "action": [
            {
              "title": "Immunize patient for Measles",
              "description": "Provide measles immunization",
              "code": [
                {
                  "coding": [
                    {
                      "system": "http://hl7.org/fhir/uv/cpg/CodeSystem/cpg-common-process-cs",
                      "code": "dispense-medications"
                    }
                  ]
                }
              ],
              "selectionBehavior": "all",
              "resource": {
                "reference": "RequestGroup/IMMZD2DTMeasles"
              }
            }
          ]
        }
      ]
    },
    {
      "resourceType": "RequestGroup",
      "id": "IMMZD2DTMeasles",
      "instantiatesCanonical": [
        "http://smart.who.int/ig/smart-immunizations/PlanDefinition/IMMZD2DTMeasles|0.1.0"
      ],
      "status": "draft",
      "intent": "proposal",
      "subject": {
        "reference": "IMMZ-Patient-enadult-m"
      },
      "action": [
        {
          "title": "Immunize patient for Measles",
          "description": "Provide measles immunization",
          "condition": [
            {
              "kind": "applicability",
              "expression": {
                "description": "Provision of the MCV dose",
                "language": "text/cql-identifier",
                "expression": "Provision of the MCV dose"
              }
            }
          ],
          "resource": {
            "reference": "MedicationRequest/IMMZD2DTMeaslesMR"
          }
        }
      ]
    },
    {
      "resourceType": "MedicationRequest",
      "id": "IMMZD2DTMeaslesMR",
      "meta": {
        "profile": [
          "http://hl7.org/fhir/uv/cpg/StructureDefinition/cpg-immunizationrequest"
        ]
      },
      "status": "draft",
      "intent": "proposal",
      "doNotPerform": false,
      "medicationCodeableConcept": {
        "coding": [
          {
            "system": "http://hl7.org/fhir/sid/icd-11",
            "code": "XM28X5",
            "display": "Measles vaccines"
          }
        ]
      },
      "subject": {
        "reference": "IMMZ-Patient-enadult-m"
      },
      "instantiatesCanonical": [
        "http://smart.who.int/ig/smart-immunizations/ActivityDefinition/IMMZD2DTMeaslesMR"
      ]
    }
  ],
  "instantiatesCanonical": [
    "http://smart.who.int/ig/smart-immunizations/PlanDefinition/IMMZDTUmbrella|0.1.0"
  ],
  "status": "draft",
  "intent": "proposal",
  "subject": {
    "reference": "IMMZ-Patient-enadult-m"
  },
  "activity": [
    {
      "reference": {
        "reference": "#RequestGroup/IMMZDTUmbrella"
      }
    }
  ]
}